;Scopy version,f4beeb1
;Exported on,Freitag August 30/08/2024
;Device,M2K
;Nr of samples,1600
;Sample rate,100000
;Tool,Oscilloscope
;Additional Information,
Sample,Time(S),CH1(V),CH2(V)
0,-0.00447,0.537779,0.141088
1,-0.00446,0.534605,0.141088
2,-0.00445,0.529843,0.141088
3,-0.00444,0.526669,0.10768
4,-0.00443,0.525082,0.0909765
5,-0.00442,0.520321,0.0909765
6,-0.00441,0.51556,0.0742728
7,-0.0044,0.512386,0.0742728
8,-0.00439,0.507625,0.0742728
9,-0.00438,0.502864,0.0408653
10,-0.00437,0.498103,0.0408653
11,-0.00436,0.493341,0.0241616
12,-0.00435,0.485406,0.0241616
13,-0.00434,0.479058,0.00745786
14,-0.00433,0.47271,0.00745786
15,-0.00432,0.466362,-0.00924586
16,-0.00431,0.455252,-0.00924586
17,-0.0043,0.44573,-0.0259496
18,-0.00429,0.436208,-0.0259496
19,-0.00428,0.423511,-0.0259496
20,-0.00427,0.412402,-0.0259496
21,-0.00426,0.399706,-0.0259496
22,-0.00425,0.383835,-0.0426533
23,-0.00424,0.369552,-0.0426533
24,-0.00423,0.356855,-0.0760607
25,-0.00422,0.340985,-0.0426533
26,-0.00421,0.325114,-0.0426533
27,-0.0042,0.309244,-0.0426533
28,-0.00419,0.291786,-0.0426533
29,-0.00418,0.277503,-0.0426533
30,-0.00417,0.258459,-0.0426533
31,-0.00416,0.245762,-0.0426533
32,-0.00415,0.228305,-0.0426533
33,-0.00414,0.212434,-0.0426533
34,-0.00413,0.196564,-0.0426533
35,-0.00412,0.179106,-0.0426533
36,-0.00411,0.161649,-0.0426533
37,-0.0041,0.147365,-0.0426533
38,-0.00409,0.129908,-0.0426533
39,-0.00408,0.115624,-0.0426533
40,-0.00407,0.0965798,-0.0426533
41,-0.00406,0.0838834,-0.0426533
42,-0.00405,0.0632518,-0.0426533
43,-0.00404,0.0473814,-0.0426533
44,-0.00403,0.0299239,-0.0426533
45,-0.00402,0.0156404,-0.0426533
46,-0.00401,-0.00181707,-0.0426533
47,-0.004,-0.0208616,-0.0426533
48,-0.00399,-0.035145,-0.0426533
49,-0.00398,-0.0510155,-0.0426533
50,-0.00397,-0.068473,-0.0426533
51,-0.00396,-0.0859305,-0.0426533
52,-0.00395,-0.101801,-0.0426533
53,-0.00394,-0.117671,-0.0426533
54,-0.00393,-0.136716,-0.0426533
55,-0.00392,-0.150999,-0.0426533
56,-0.00391,-0.170044,-0.0426533
57,-0.0039,-0.18274,-0.0426533
58,-0.00389,-0.201785,-0.0426533
59,-0.00388,-0.219242,-0.0760607
60,-0.00387,-0.2367,-0.0760607
61,-0.00386,-0.249396,-0.0760607
62,-0.00385,-0.268441,-0.0760607
63,-0.00384,-0.284311,-0.0760607
64,-0.00383,-0.300182,-0.0760607
65,-0.00382,-0.317639,-0.0760607
66,-0.00381,-0.33351,-0.0426533
67,-0.0038,-0.350967,-0.0426533
68,-0.00379,-0.370012,-0.0426533
69,-0.00378,-0.382708,-0.0426533
70,-0.00377,-0.400166,-0.0927645
71,-0.00376,-0.416036,-0.0426533
72,-0.00375,-0.435081,-0.0426533
73,-0.00374,-0.450951,-0.0426533
74,-0.00373,-0.469996,-0.0426533
75,-0.00372,-0.484279,-0.0426533
76,-0.00371,-0.50015,-0.0426533
77,-0.0037,-0.517607,-0.0426533
78,-0.00369,-0.535065,-0.0426533
79,-0.00368,-0.550935,-0.0426533
80,-0.00367,-0.566806,-0.0426533
81,-0.00366,-0.584263,-0.0426533
82,-0.00365,-0.601721,-0.0760607
83,-0.00364,-0.616004,-0.0760607
84,-0.00363,-0.633462,-0.0760607
85,-0.00362,-0.649332,-0.0760607
86,-0.00361,-0.666789,-0.0760607
87,-0.0036,-0.68266,-0.0426533
88,-0.00359,-0.700117,-0.0426533
89,-0.00358,-0.715988,-0.0426533
90,-0.00357,-0.733445,-0.0426533
91,-0.00356,-0.749316,-0.0426533
92,-0.00355,-0.765186,-0.0426533
93,-0.00354,-0.782644,-0.0760607
94,-0.00353,-0.800101,-0.0760607
95,-0.00352,-0.815972,-0.0426533
96,-0.00351,-0.833429,-0.0426533
97,-0.0035,-0.850887,-0.0426533
98,-0.00349,-0.868344,-0.0426533
99,-0.00348,-0.881041,-0.0426533
100,-0.00347,-0.900085,-0.0426533
101,-0.00346,-0.915956,-0.0426533
102,-0.00345,-0.935,-0.0426533
103,-0.00344,-0.949284,-0.0426533
104,-0.00343,-0.966741,-0.0426533
105,-0.00342,-0.982612,-0.0426533
106,-0.00341,-0.998482,-0.0426533
107,-0.0034,-1.01435,-0.0426533
108,-0.00339,-1.03181,-0.0426533
109,-0.00338,-1.04927,-0.0426533
110,-0.00337,-1.06514,-0.0426533
111,-0.00336,-1.08101,-0.0426533
112,-0.00335,-1.10005,-0.0760607
113,-0.00334,-1.11434,-0.0760607
114,-0.00333,-1.13021,-0.0426533
115,-0.00332,-1.14766,-0.0760607
116,-0.00331,-1.16512,-0.0760607
117,-0.0033,-1.18258,-0.0760607
118,-0.00329,-1.19845,-0.0426533
119,-0.00328,-1.21432,-0.0426533
120,-0.00327,-1.23178,-0.0426533
121,-0.00326,-1.24924,-0.0426533
122,-0.00325,-1.26511,-0.0426533
123,-0.00324,-1.28098,-0.0426533
124,-0.00323,-1.29843,-0.0426533
125,-0.00322,-1.31272,-0.0426533
126,-0.00321,-1.33017,-0.0426533
127,-0.0032,-1.34763,-0.0426533
128,-0.00319,-1.36509,-0.0760607
129,-0.00318,-1.38096,-0.0760607
130,-0.00317,-1.39683,-0.0760607
131,-0.00316,-1.41429,-0.0760607
132,-0.00315,-1.43175,-0.0426533
133,-0.00314,-1.44762,-0.0426533
134,-0.00313,-1.4619,-0.0426533
135,-0.00312,-1.47936,-0.0259496
136,-0.00311,-1.4984,-0.0426533
137,-0.0031,-1.5111,-0.0426533
138,-0.00309,-1.53173,-0.0426533
139,-0.00308,-1.54601,-0.0760607
140,-0.00307,-1.56506,-0.0760607
141,-0.00306,-1.58093,-0.0426533
142,-0.00305,-1.59839,-0.0426533
143,-0.00304,-1.61267,-0.0426533
144,-0.00303,-1.63013,-0.0426533
145,-0.00302,-1.646,-0.0426533
146,-0.00301,-1.66504,-0.0426533
147,-0.003,-1.67932,-0.0426533
148,-0.00299,-1.69678,-0.0426533
149,-0.00298,-1.71265,-0.0426533
150,-0.00297,-1.73011,-0.0426533
151,-0.00296,-1.74598,-0.0426533
152,-0.00295,-1.76185,-0.0426533
153,-0.00294,-1.77772,-0.0426533
154,-0.00293,-1.79518,-0.0426533
155,-0.00292,-1.81264,-0.0426533
156,-0.00291,-1.82692,-0.0426533
157,-0.0029,-1.84438,-0.0426533
158,-0.00289,-1.86184,-0.0426533
159,-0.00288,-1.87771,-0.0426533
160,-0.00287,-1.89516,-0.0426533
161,-0.00286,-1.91421,-0.0426533
162,-0.00285,-1.93167,-0.0760607
163,-0.00284,-1.94436,-0.0760607
164,-0.00283,-1.96341,-0.0760607
165,-0.00282,-1.98086,-0.0760607
166,-0.00281,-1.99673,-0.0760607
167,-0.0028,-2.0126,-0.0760607
168,-0.00279,-2.03006,-0.0760607
169,-0.00278,-2.04435,-0.0760607
170,-0.00277,-2.0618,-0.0426533
171,-0.00276,-2.07767,-0.0760607
172,-0.00275,-2.09513,-0.0760607
173,-0.00274,-2.10941,-0.0760607
174,-0.00273,-2.13005,-0.0760607
175,-0.00272,-2.14433,-0.0760607
176,-0.00271,-2.16179,-0.0426533
177,-0.0027,-2.17766,-0.0426533
178,-0.00269,-2.19353,-0.0426533
179,-0.00268,-2.2094,-0.0426533
180,-0.00267,-2.22844,-0.0426533
181,-0.00266,-2.24273,-0.0426533
182,-0.00265,-2.26018,-0.0426533
183,-0.00264,-2.27764,-0.0426533
184,-0.00263,-2.2951,-0.0426533
185,-0.00262,-2.31097,-0.0426533
186,-0.00261,-2.32684,-0.0426533
187,-0.0026,-2.3443,-0.0426533
188,-0.00259,-2.36175,-0.0426533
189,-0.00258,-2.37921,-0.0426533
190,-0.00257,-2.3935,-0.0927645
191,-0.00256,-2.41095,-0.0426533
192,-0.00255,-2.42841,-0.0426533
193,-0.00254,-2.44428,-0.0426533
194,-0.00253,-2.46015,-0.0426533
195,-0.00252,-2.47602,-0.0426533
196,-0.00251,-2.49348,-0.0426533
197,-0.0025,-2.50935,-0.0426533
198,-0.00249,-2.52522,-0.0426533
199,-0.00248,-2.54268,-0.0426533
200,-0.00247,-2.55855,-0.0426533
201,-0.00246,-2.57442,-0.0426533
202,-0.00245,-2.59346,-0.0426533
203,-0.00244,-2.60775,-0.0426533
204,-0.00243,-2.62679,-0.0426533
205,-0.00242,-2.64266,-0.0426533
206,-0.00241,-2.66012,-0.0426533
207,-0.0024,-2.6744,-0.0426533
208,-0.00239,-2.69345,-0.0760607
209,-0.00238,-2.70773,-0.0760607
210,-0.00237,-2.72519,-0.0426533
211,-0.00236,-2.74265,-0.0426533
212,-0.00235,-2.7601,-0.0426533
213,-0.00234,-2.77439,-0.0426533
214,-0.00233,-2.79184,-0.0426533
215,-0.00232,-2.8093,-0.0426533
216,-0.00231,-2.82835,-0.0426533
217,-0.0023,-2.84104,-0.0426533
218,-0.00229,-2.8585,-0.0426533
219,-0.00228,-2.87596,-0.0426533
220,-0.00227,-2.895,-0.0760607
221,-0.00226,-2.9077,-0.0760607
222,-0.00225,-2.92674,-0.0426533
223,-0.00224,-2.94103,-0.0426533
224,-0.00223,-2.95848,-0.0426533
225,-0.00222,-2.97277,-0.0426533
226,-0.00221,-2.99181,-0.0426533
227,-0.0022,-3.00927,-0.0426533
228,-0.00219,-3.02355,-0.0426533
229,-0.00218,-3.04101,-0.0426533
230,-0.00217,-3.05847,-0.0426533
231,-0.00216,-3.07593,-0.0760607
232,-0.00215,-3.09021,-0.0760607
233,-0.00214,-3.10767,-0.0426533
234,-0.00213,-3.12512,-0.0426533
235,-0.00212,-3.13941,-0.0426533
236,-0.00211,-3.15845,-0.0426533
237,-0.0021,-3.17432,-0.0426533
238,-0.00209,-3.19178,-0.0426533
239,-0.00208,-3.20606,-0.0426533
240,-0.00207,-3.22511,-0.0426533
241,-0.00206,-3.23939,-0.0426533
242,-0.00205,-3.25685,-0.0426533
243,-0.00204,-3.27272,-0.0426533
244,-0.00203,-3.29018,-0.0426533
245,-0.00202,-3.30763,-0.0426533
246,-0.00201,-3.3235,-0.0426533
247,-0.002,-3.33938,-0.0426533
248,-0.00199,-3.35683,-0.0426533
249,-0.00198,-3.37429,-0.0760607
250,-0.00197,-3.39016,-0.0426533
251,-0.00196,-3.40603,-0.0426533
252,-0.00195,-3.42349,-0.0426533
253,-0.00194,-3.43936,-0.0760607
254,-0.00193,-3.45364,-0.0760607
255,-0.00192,-3.4711,-0.0760607
256,-0.00191,-3.49173,-0.0426533
257,-0.0019,-3.50602,-0.0426533
258,-0.00189,-3.52189,-0.0426533
259,-0.00188,-3.53776,-0.0426533
260,-0.00187,-3.55521,-0.0426533
261,-0.00186,-3.57267,-0.0426533
262,-0.00185,-3.58695,-0.0426533
263,-0.00184,-3.60283,-0.0426533
264,-0.00183,-3.62346,-0.0426533
265,-0.00182,-3.63615,-0.0426533
266,-0.00181,-3.6552,-0.0760607
267,-0.0018,-3.66948,-0.0426533
268,-0.00179,-3.68853,-0.0426533
269,-0.00178,-3.70598,-0.0426533
270,-0.00177,-3.72027,-0.0426533
271,-0.00176,-3.73614,-0.0760607
272,-0.00175,-3.75677,-0.0426533
273,-0.00174,-3.77423,-0.0426533
274,-0.00173,-3.7901,-0.0426533
275,-0.00172,-3.80597,-0.0426533
276,-0.00171,-3.82342,-0.0426533
277,-0.0017,-3.8393,-0.0760607
278,-0.00169,-3.85675,-0.0760607
279,-0.00168,-3.87262,-0.0426533
280,-0.00167,-3.89167,-0.0426533
281,-0.00166,-3.90436,-0.0426533
282,-0.00165,-3.92341,-0.0426533
283,-0.00164,-3.93769,-0.0426533
284,-0.00163,-3.95515,-0.0426533
285,-0.00162,-3.97102,-0.0426533
286,-0.00161,-3.98848,-0.0426533
287,-0.0016,-4.00593,-0.0426533
288,-0.00159,-4.02339,-0.0426533
289,-0.00158,-4.03609,-0.0426533
290,-0.00157,-4.05513,-0.0426533
291,-0.00156,-4.06942,-0.0426533
292,-0.00155,-4.08687,-0.0426533
293,-0.00154,-4.10433,-0.0426533
294,-0.00153,-4.1202,-0.0426533
295,-0.00152,-4.13766,-0.0426533
296,-0.00151,-4.14083,-0.0760607
297,-0.0015,-4.12179,-0.0426533
298,-0.00149,-4.10592,-0.0426533
299,-0.00148,-4.09005,-0.0426533
300,-0.00147,-4.07418,-0.0426533
301,-0.00146,-4.05672,-0.0426533
302,-0.00145,-4.03926,-0.0426533
303,-0.00144,-4.02339,-0.0426533
304,-0.00143,-4.00593,-0.0426533
305,-0.00142,-3.99165,-0.0426533
306,-0.00141,-3.97261,-0.0426533
307,-0.0014,-3.95991,-0.0760607
308,-0.00139,-3.94087,-0.0760607
309,-0.00138,-3.92658,-0.0426533
310,-0.00137,-3.90913,-0.0426533
311,-0.00136,-3.89325,-0.0426533
312,-0.00135,-3.8758,-0.0426533
313,-0.00134,-3.85834,-0.0426533
314,-0.00133,-3.84406,-0.0760607
315,-0.00132,-3.8266,-0.0426533
316,-0.00131,-3.80914,-0.0426533
317,-0.0013,-3.79327,-0.0426533
318,-0.00129,-3.77581,-0.0426533
319,-0.00128,-3.76312,-0.0426533
320,-0.00127,-3.7409,-0.0760607
321,-0.00126,-3.72503,-0.0760607
322,-0.00125,-3.70916,-0.0760607
323,-0.00124,-3.6917,-0.0760607
324,-0.00123,-3.67424,-0.0760607
325,-0.00122,-3.65837,-0.0760607
326,-0.00121,-3.6425,-0.0426533
327,-0.0012,-3.62504,-0.0426533
328,-0.00119,-3.60759,-0.0426533
329,-0.00118,-3.59489,-0.0426533
330,-0.00117,-3.57585,-0.0426533
331,-0.00116,-3.56156,-0.0426533
332,-0.00115,-3.54252,-0.0426533
333,-0.00114,-3.52823,-0.0426533
334,-0.00113,-3.51078,-0.0426533
335,-0.00112,-3.49332,-0.0760607
336,-0.00111,-3.47586,-0.0760607
337,-0.0011,-3.46158,-0.0760607
338,-0.00109,-3.44412,-0.0426533
339,-0.00108,-3.42666,-0.0426533
340,-0.00107,-3.41079,-0.0426533
341,-0.00106,-3.39492,-0.0426533
342,-0.00105,-3.37905,-0.0760607
343,-0.00104,-3.36159,-0.0760607
344,-0.00103,-3.34255,-0.0426533
345,-0.00102,-3.32985,-0.0426533
346,-0.00101,-3.31081,-0.0426533
347,-0.001,-3.29653,-0.0426533
348,-0.00099,-3.27907,-0.0760607
349,-0.00098,-3.26478,-0.0760607
350,-0.00097,-3.24574,-0.0760607
351,-0.00096,-3.22987,-0.0426533
352,-0.00095,-3.214,-0.0927645
353,-0.00094,-3.19813,-0.0426533
354,-0.00093,-3.18067,-0.0426533
355,-0.00092,-3.1648,-0.0426533
356,-0.00091,-3.14734,-0.0426533
357,-0.0009,-3.13147,-0.0426533
358,-0.00089,-3.11401,-0.0426533
359,-0.00088,-3.09814,-0.0426533
360,-0.00087,-3.08227,-0.0426533
361,-0.00086,-3.06482,-0.0426533
362,-0.00085,-3.04736,-0.0426533
363,-0.00084,-3.03149,-0.0426533
364,-0.00083,-3.01562,-0.0426533
365,-0.00082,-2.99816,-0.0426533
366,-0.00081,-2.9807,-0.0426533
367,-0.0008,-2.96483,-0.0426533
368,-0.00079,-2.94738,-0.0760607
369,-0.00078,-2.93309,-0.0760607
370,-0.00077,-2.91405,-0.0760607
371,-0.00076,-2.90135,-0.0760607
372,-0.00075,-2.88231,-0.0760607
373,-0.00074,-2.86802,-0.0426533
374,-0.00073,-2.85057,-0.0426533
375,-0.00072,-2.83628,-0.0426533
376,-0.00071,-2.81724,-0.0426533
377,-0.0007,-2.79978,-0.0760607
378,-0.00069,-2.78391,-0.0426533
379,-0.00068,-2.76645,-0.0426533
380,-0.00067,-2.75058,-0.0426533
381,-0.00066,-2.73312,-0.0426533
382,-0.00065,-2.71567,-0.0426533
383,-0.00064,-2.70138,-0.0426533
384,-0.00063,-2.68393,-0.0760607
385,-0.00062,-2.66647,-0.0426533
386,-0.00061,-2.64901,-0.0426533
387,-0.0006,-2.63473,-0.0426533
388,-0.00059,-2.61727,-0.0426533
389,-0.00058,-2.6014,-0.0426533
390,-0.00057,-2.58394,-0.0760607
391,-0.00056,-2.56807,-0.0760607
392,-0.00055,-2.55061,-0.0760607
393,-0.00054,-2.53474,-0.0760607
394,-0.00053,-2.51887,-0.0760607
395,-0.00052,-2.50142,-0.0760607
396,-0.00051,-2.48396,-0.0426533
397,-0.0005,-2.46967,-0.0426533
398,-0.00049,-2.45222,-0.0426533
399,-0.00048,-2.43635,-0.0426533
400,-0.00047,-2.41889,-0.0426533
401,-0.00046,-2.40461,-0.0426533
402,-0.00045,-2.38715,-0.0426533
403,-0.00044,-2.37128,-0.0426533
404,-0.00043,-2.35541,-0.0426533
405,-0.00042,-2.33795,-0.0760607
406,-0.00041,-2.32049,-0.0760607
407,-0.0004,-2.30303,-0.0426533
408,-0.00039,-2.28399,-0.0426533
409,-0.00038,-2.27129,-0.0426533
410,-0.00037,-2.25384,-0.0426533
411,-0.00036,-2.23479,-0.0426533
412,-0.00035,-2.22209,-0.0426533
413,-0.00034,-2.20305,-0.0426533
414,-0.00033,-2.18559,-0.0927645
415,-0.00032,-2.17131,-0.0426533
416,-0.00031,-2.15385,-0.0259496
417,-0.0003,-2.13957,-0.0760607
418,-0.00029,-2.12052,-0.0426533
419,-0.00028,-2.10307,-0.0426533
420,-0.00027,-2.0872,-0.0426533
421,-0.00026,-2.07133,-0.0426533
422,-0.00025,-2.05387,-0.0426533
423,-0.00024,-2.03958,-0.0426533
424,-0.00023,-2.02213,-0.0426533
425,-0.00022,-2.00467,-0.0426533
426,-0.00021,-1.9888,-0.0426533
427,-0.0002,-1.97293,-0.0426533
428,-0.00019,-1.95706,-0.0426533
429,-0.00018,-1.9396,-0.0426533
430,-0.00017,-1.92214,-0.0426533
431,-0.00016,-1.90627,-0.0426533
432,-0.00015,-1.88882,-0.0426533
433,-0.00014,-1.87136,-0.0426533
434,-0.00013,-1.8539,-0.0426533
435,-0.00012,-1.83803,-0.0426533
436,-0.00011,-1.82216,-0.0426533
437,-0.0001,-1.8047,-0.0426533
438,-9e-05,-1.78724,-0.0426533
439,-8e-05,-1.77455,-0.0426533
440,-7e-05,-1.7555,-0.0426533
441,-6e-05,-1.73963,-0.0426533
442,-5e-05,-1.72376,-0.0426533
443,-4e-05,-1.7063,-0.0760607
444,-3e-05,-1.69043,-0.0760607
445,-2e-05,-1.67139,-0.0760607
446,-1e-05,-1.65869,-0.0426533
447,0,-1.64124,-0.0760607
448,1e-05,-1.62219,-0.0760607
449,2e-05,-1.6095,-0.0760607
450,3e-05,-1.59045,-0.0760607
451,4e-05,-1.57617,-0.0760607
452,5e-05,-1.55712,-0.0760607
453,6e-05,-1.53966,-0.0760607
454,7e-05,-1.52379,-0.0426533
455,8e-05,-1.50634,-0.0426533
456,9e-05,-1.48888,-0.0426533
457,0.0001,-1.47618,-0.0426533
458,0.00011,-1.45714,-0.0426533
459,0.00012,-1.44286,-0.0426533
460,0.00013,-1.42381,-0.0426533
461,0.00014,-1.40953,-0.0426533
462,0.00015,-1.39207,-0.0760607
463,0.00016,-1.37461,-0.0760607
464,0.00017,-1.35715,-0.0760607
465,0.00018,-1.34287,-0.0760607
466,0.00019,-1.32541,-0.0426533
467,0.0002,-1.30954,-0.0426533
468,0.00021,-1.29209,-0.0426533
469,0.00022,-1.27463,-0.0760607
470,0.00023,-1.26034,-0.0426533
471,0.00024,-1.24289,-0.0426533
472,0.00025,-1.22702,-0.0760607
473,0.00026,-1.20956,-0.0426533
474,0.00027,-1.1921,-0.0426533
475,0.00028,-1.17464,-0.0760607
476,0.00029,-1.15877,-0.0426533
477,0.0003,-1.14449,-0.0426533
478,0.00031,-1.12545,-0.0426533
479,0.00032,-1.11116,-0.0426533
480,0.00033,-1.0937,-0.0426533
481,0.00034,-1.07625,-0.0426533
482,0.00035,-1.05879,-0.0426533
483,0.00036,-1.04292,-0.0426533
484,0.00037,-1.02705,-0.0426533
485,0.00038,-1.01118,-0.0426533
486,0.00039,-0.993721,-0.0426533
487,0.0004,-0.976264,-0.0426533
488,0.00041,-0.96198,-0.0426533
489,0.00042,-0.944523,-0.0426533
490,0.00043,-0.927065,-0.0760607
491,0.00044,-0.912782,-0.0760607
492,0.00045,-0.893737,-0.0760607
493,0.00046,-0.879454,-0.0760607
494,0.00047,-0.861996,-0.0760607
495,0.00048,-0.846126,-0.0426533
496,0.00049,-0.828668,-0.0426533
497,0.0005,-0.811211,-0.0760607
498,0.00051,-0.793753,-0.0760607
499,0.00052,-0.777883,-0.0426533
500,0.00053,-0.760425,-0.0426533
501,0.00054,-0.744555,-0.0426533
502,0.00055,-0.727097,-0.0426533
503,0.00056,-0.711227,-0.0426533
504,0.00057,-0.693769,-0.0426533
505,0.00058,-0.677899,-0.0426533
506,0.00059,-0.660441,-0.0426533
507,0.0006,-0.646158,-0.0426533
508,0.00061,-0.6287,-0.0426533
509,0.00062,-0.61283,-0.0426533
510,0.00063,-0.596959,-0.0426533
511,0.00064,-0.579502,-0.0426533
512,0.00065,-0.562044,-0.0426533
513,0.00066,-0.546174,-0.0426533
514,0.00067,-0.530303,-0.0760607
515,0.00068,-0.514433,-0.0760607
516,0.00069,-0.496976,-0.0760607
517,0.0007,-0.482692,-0.0760607
518,0.00071,-0.463648,-0.0760607
519,0.00072,-0.44619,-0.0760607
520,0.00073,-0.428733,-0.0426533
521,0.00074,-0.411275,-0.0426533
522,0.00075,-0.395405,-0.0426533
523,0.00076,-0.377947,-0.0426533
524,0.00077,-0.362077,-0.0426533
525,0.00078,-0.344619,-0.0426533
526,0.00079,-0.328749,-0.0426533
527,0.0008,-0.312878,-0.0426533
528,0.00081,-0.295421,-0.0426533
529,0.00082,-0.281137,-0.0426533
530,0.00083,-0.26368,-0.0426533
531,0.00084,-0.246222,-0.0426533
532,0.00085,-0.230352,-0.0760607
533,0.00086,-0.214481,-0.0760607
534,0.00087,-0.197024,-0.0760607
535,0.00088,-0.181153,-0.0426533
536,0.00089,-0.162109,-0.0426533
537,0.0009,-0.149412,-0.0426533
538,0.00091,-0.130368,-0.0426533
539,0.00092,-0.114497,-0.0426533
540,0.00093,-0.100214,-0.0426533
541,0.00094,-0.0811694,-0.0426533
542,0.00095,-0.0652989,-0.0426533
543,0.00096,-0.0478414,-0.0426533
544,0.00097,-0.031971,-0.0426533
545,0.00098,-0.0145134,-0.0426533
546,0.00099,-0.000230028,-0.0426533
547,0.001,0.0172275,-0.0760607
548,0.00101,0.0315109,-0.0760607
549,0.00102,0.0489684,-0.0760607
550,0.00103,0.0664259,-0.0760607
551,0.00104,0.0838834,-0.0426533
552,0.00105,0.0981668,-0.0426533
553,0.00106,0.114037,-0.0760607
554,0.00107,0.133082,-0.0760607
555,0.00108,0.147365,-0.0760607
556,0.00109,0.16641,-0.0760607
557,0.0011,0.180693,-0.0426533
558,0.00111,0.198151,-0.0426533
559,0.00112,0.214021,-0.0426533
560,0.00113,0.231479,-0.0426533
561,0.00114,0.247349,-0.0426533
562,0.00115,0.264807,-0.0426533
563,0.00116,0.27909,-0.0426533
564,0.00117,0.296548,-0.0426533
565,0.00118,0.310831,-0.0426533
566,0.00119,0.326702,-0.0426533
567,0.0012,0.342572,-0.0426533
568,0.00121,0.360029,-0.0426533
569,0.00122,0.372726,-0.0426533
570,0.00123,0.388596,-0.0426533
571,0.00124,0.399706,-0.0259496
572,0.00125,0.413989,-0.0259496
573,0.00126,0.425098,-0.0259496
574,0.00127,0.437795,-0.0259496
575,0.00128,0.447317,-0.00924586
576,0.00129,0.456839,-0.00924586
577,0.0013,0.466362,-0.00924586
578,0.00131,0.47271,0.00745786
579,0.00132,0.480645,0.00745786
580,0.00133,0.48858,0.0241616
581,0.00134,0.491754,0.0241616
582,0.00135,0.49969,0.057569
583,0.00136,0.502864,0.057569
584,0.00137,0.509212,0.057569
585,0.00138,0.513973,0.0909765
586,0.00139,0.517147,0.0909765
587,0.0014,0.520321,0.0909765
588,0.00141,0.523495,0.10768
589,0.00142,0.526669,0.10768
590,0.00143,0.529843,0.124384
591,0.00144,0.534605,0.157791
592,0.00145,0.537779,0.157791
593,0.00146,0.540953,0.157791
594,0.00147,0.544127,0.174495
595,0.00148,0.544127,0.191199
596,0.00149,0.548888,0.224606
597,0.0015,0.548888,0.258014
598,0.00151,0.552062,0.258014
599,0.00152,0.553649,0.258014
600,0.00153,0.55841,0.274717
601,0.00154,0.55841,0.308125
602,0.00155,0.561584,0.308125
603,0.00156,0.563171,0.308125
604,0.00157,0.564758,0.324829
605,0.00158,0.566346,0.358236
606,0.00159,0.567933,0.358236
607,0.0016,0.56952,0.37494
608,0.00161,0.571107,0.37494
609,0.00162,0.572694,0.391643
610,0.00163,0.574281,0.425051
611,0.00164,0.574281,0.425051
612,0.00165,0.575868,0.441755
613,0.00166,0.579042,0.441755
614,0.00167,0.582216,0.491866
615,0.00168,0.582216,0.491866
616,0.00169,0.582216,0.508569
617,0.0017,0.58539,0.508569
618,0.00171,0.58539,0.525273
619,0.00172,0.58539,0.558681
620,0.00173,0.586977,0.558681
621,0.00174,0.590151,0.575384
622,0.00175,0.590151,0.592088
623,0.00176,0.590151,0.608792
624,0.00177,0.591738,0.625496
625,0.00178,0.591738,0.625496
626,0.00179,0.594912,0.658903
627,0.0018,0.594912,0.658903
628,0.00181,0.594912,0.675607
629,0.00182,0.596499,0.675607
630,0.00183,0.596499,0.725718
631,0.00184,0.598086,0.725718
632,0.00185,0.598086,0.742422
633,0.00186,0.601261,0.742422
634,0.00187,0.601261,0.775829
635,0.00188,0.602848,0.775829
636,0.00189,0.602848,0.792533
637,0.0019,0.604435,0.809236
638,0.00191,0.604435,0.82594
639,0.00192,0.606022,0.842644
640,0.00193,0.606022,0.859348
641,0.00194,0.607609,0.859348
642,0.00195,0.607609,0.876051
643,0.00196,0.609196,0.909459
644,0.00197,0.609196,0.909459
645,0.00198,0.609196,0.909459
646,0.00199,0.610783,0.926163
647,0.002,0.610783,0.976274
648,0.00201,0.610783,0.976274
649,0.00202,0.613957,0.992977
650,0.00203,0.61237,1.00968
651,0.00204,0.615544,1.00968
652,0.00205,0.613957,1.02638
653,0.00206,0.615544,1.04309
654,0.00207,0.615544,1.0765
655,0.00208,0.615544,1.0765
656,0.00209,0.618718,1.0932
657,0.0021,0.617131,1.1099
658,0.00211,0.617131,1.1099
659,0.00212,0.620305,1.12661
660,0.00213,0.618718,1.14331
661,0.00214,0.620305,1.16001
662,0.00215,0.620305,1.19342
663,0.00216,0.620305,1.17672
664,0.00217,0.621892,1.24353
665,0.00218,0.621892,1.24353
666,0.00219,0.621892,1.24353
667,0.0022,0.625066,1.26024
668,0.00221,0.625066,1.27694
669,0.00222,0.625066,1.31035
670,0.00223,0.625066,1.31035
671,0.00224,0.62824,1.32705
672,0.00225,0.626653,1.34376
673,0.00226,0.626653,1.36046
674,0.00227,0.629827,1.36046
675,0.00228,0.62824,1.37716
676,0.00229,0.62824,1.39387
677,0.0023,0.631414,1.42727
678,0.00231,0.629827,1.42727
679,0.00232,0.629827,1.44398
680,0.00233,0.629827,1.44398
681,0.00234,0.633001,1.47739
682,0.00235,0.631414,1.51079
683,0.00236,0.631414,1.51079
684,0.00237,0.633001,1.5275
685,0.00238,0.633001,1.5442
686,0.00239,0.633001,1.5442
687,0.0024,0.633001,1.5609
688,0.00241,0.636176,1.57761
689,0.00242,0.634588,1.59431
690,0.00243,0.634588,1.62772
691,0.00244,0.636176,1.61102
692,0.00245,0.636176,1.62772
693,0.00246,0.636176,1.64442
694,0.00247,0.636176,1.66113
695,0.00248,0.637763,1.67783
696,0.00249,0.637763,1.72794
697,0.0025,0.637763,1.74464
698,0.00251,0.637763,1.76135
699,0.00252,0.640937,1.76135
700,0.00253,0.63935,1.77805
701,0.00254,0.63935,1.77805
702,0.00255,0.63935,1.81146
703,0.00256,0.642524,1.81146
704,0.00257,0.640937,1.82816
705,0.00258,0.640937,1.84487
706,0.00259,0.640937,1.84487
707,0.0026,0.644111,1.87827
708,0.00261,0.642524,1.87827
709,0.00262,0.642524,1.91168
710,0.00263,0.642524,1.92839
711,0.00264,0.642524,1.92839
712,0.00265,0.642524,1.92839
713,0.00266,0.647285,1.96179
714,0.00267,0.644111,1.9952
715,0.00268,0.644111,1.9952
716,0.00269,0.644111,1.9952
717,0.0027,0.644111,2.02861
718,0.00271,0.648872,2.04531
719,0.00272,0.647285,2.06202
720,0.00273,0.647285,2.09542
721,0.00274,0.650459,2.09542
722,0.00275,0.648872,2.11213
723,0.00276,0.648872,2.11213
724,0.00277,0.648872,2.14553
725,0.00278,0.650459,2.16224
726,0.00279,0.650459,2.16224
727,0.0028,0.650459,2.17894
728,0.00281,0.650459,2.17894
729,0.00282,0.650459,2.21235
730,0.00283,0.650459,2.21235
731,0.00284,0.650459,2.24576
732,0.00285,0.653633,2.26246
733,0.00286,0.652046,2.27916
734,0.00287,0.652046,2.29587
735,0.00288,0.652046,2.31257
736,0.00289,0.65522,2.32928
737,0.0029,0.653633,2.34598
738,0.00291,0.653633,2.34598
739,0.00292,0.653633,2.37939
740,0.00293,0.653633,2.39609
741,0.00294,0.656807,2.41279
742,0.00295,0.65522,2.41279
743,0.00296,0.65522,2.41279
744,0.00297,0.65522,2.4462
745,0.00298,0.65522,2.4629
746,0.00299,0.65522,2.49631
747,0.003,0.658394,2.51302
748,0.00301,0.656807,2.51302
749,0.00302,0.656807,2.52972
750,0.00303,0.656807,2.52972
751,0.00304,0.656807,2.56313
752,0.00305,0.656807,2.57983
753,0.00306,0.659981,2.59653
754,0.00307,0.658394,2.59653
755,0.00308,0.658394,2.61324
756,0.00309,0.658394,2.62994
757,0.0031,0.658394,2.62994
758,0.00311,0.658394,2.66335
759,0.00312,0.659981,2.68005
760,0.00313,0.659981,2.71346
761,0.00314,0.659981,2.69676
762,0.00315,0.659981,2.74687
763,0.00316,0.659981,2.74687
764,0.00317,0.659981,2.74687
765,0.00318,0.663155,2.78028
766,0.00319,0.661568,2.79698
767,0.0032,0.661568,2.79698
768,0.00321,0.661568,2.81368
769,0.00322,0.661568,2.83039
770,0.00323,0.661568,2.83039
771,0.00324,0.663155,2.86379
772,0.00325,0.663155,2.86379
773,0.00326,0.663155,2.8805
774,0.00327,0.663155,2.8972
775,0.00328,0.663155,2.91391
776,0.00329,0.663155,2.93061
777,0.0033,0.664742,2.94731
778,0.00331,0.664742,2.96402
779,0.00332,0.664742,2.96402
780,0.00333,0.664742,3.01413
781,0.00334,0.664742,3.03083
782,0.00335,0.664742,3.04754
783,0.00336,0.669504,3.06424
784,0.00337,0.666329,3.06424
785,0.00338,0.666329,3.08094
786,0.00339,0.666329,3.08094
787,0.0034,0.666329,3.11435
788,0.00341,0.666329,3.13105
789,0.00342,0.666329,3.14776
790,0.00343,0.669504,3.14776
791,0.00344,0.669504,3.16446
792,0.00345,0.669504,3.18116
793,0.00346,0.669504,3.18116
794,0.00347,0.669504,3.21457
795,0.00348,0.669504,3.24798
796,0.00349,0.669504,3.24798
797,0.0035,0.669504,3.21457
798,0.00351,0.669504,3.19787
799,0.00352,0.669504,3.18116
800,0.00353,0.669504,3.16446
801,0.00354,0.669504,3.14776
802,0.00355,0.666329,3.14776
803,0.00356,0.666329,3.13105
804,0.00357,0.666329,3.11435
805,0.00358,0.666329,3.09765
806,0.00359,0.666329,3.06424
807,0.0036,0.666329,3.06424
808,0.00361,0.666329,3.04754
809,0.00362,0.664742,3.04754
810,0.00363,0.664742,3.03083
811,0.00364,0.664742,2.99742
812,0.00365,0.664742,2.96402
813,0.00366,0.664742,2.96402
814,0.00367,0.664742,2.93061
815,0.00368,0.663155,2.93061
816,0.00369,0.663155,2.91391
817,0.0037,0.663155,2.91391
818,0.00371,0.663155,2.8805
819,0.00372,0.663155,2.8805
820,0.00373,0.663155,2.86379
821,0.00374,0.664742,2.84709
822,0.00375,0.661568,2.83039
823,0.00376,0.661568,2.83039
824,0.00377,0.661568,2.81368
825,0.00378,0.661568,2.79698
826,0.00379,0.663155,2.78028
827,0.0038,0.661568,2.74687
828,0.00381,0.659981,2.74687
829,0.00382,0.659981,2.71346
830,0.00383,0.659981,2.69676
831,0.00384,0.661568,2.69676
832,0.00385,0.658394,2.64665
833,0.00386,0.658394,2.64665
834,0.00387,0.658394,2.64665
835,0.00388,0.658394,2.62994
836,0.00389,0.658394,2.61324
837,0.0039,0.658394,2.61324
838,0.00391,0.659981,2.59653
839,0.00392,0.656807,2.56313
840,0.00393,0.656807,2.57983
841,0.00394,0.656807,2.52972
842,0.00395,0.656807,2.52972
843,0.00396,0.656807,2.52972
844,0.00397,0.656807,2.51302
845,0.00398,0.656807,2.4629
846,0.00399,0.65522,2.4629
847,0.004,0.65522,2.4462
848,0.00401,0.65522,2.4462
849,0.00402,0.65522,2.4295
850,0.00403,0.65522,2.41279
851,0.00404,0.65522,2.39609
852,0.00405,0.653633,2.37939
853,0.00406,0.653633,2.36268
854,0.00407,0.65522,2.34598
855,0.00408,0.652046,2.32928
856,0.00409,0.652046,2.29587
857,0.0041,0.652046,2.29587
858,0.00411,0.652046,2.27916
859,0.00412,0.653633,2.26246
860,0.00413,0.650459,2.24576
861,0.00414,0.650459,2.24576
862,0.00415,0.650459,2.19565
863,0.00416,0.650459,2.19565
864,0.00417,0.650459,2.17894
865,0.00418,0.650459,2.17894
866,0.00419,0.652046,2.16224
867,0.0042,0.648872,2.12883
868,0.00421,0.648872,2.12883
869,0.00422,0.648872,2.11213
870,0.00423,0.648872,2.09542
871,0.00424,0.648872,2.07872
872,0.00425,0.647285,2.06202
873,0.00426,0.647285,2.04531
874,0.00427,0.647285,2.02861
875,0.00428,0.647285,2.02861
876,0.00429,0.644111,1.9952
877,0.0043,0.644111,1.9952
878,0.00431,0.644111,1.96179
879,0.00432,0.647285,1.96179
880,0.00433,0.642524,1.94509
881,0.00434,0.642524,1.92839
882,0.00435,0.642524,1.91168
883,0.00436,0.642524,1.87827
884,0.00437,0.642524,1.87827
885,0.00438,0.640937,1.86157
886,0.00439,0.640937,1.84487
887,0.0044,0.640937,1.84487
888,0.00441,0.642524,1.81146
889,0.00442,0.63935,1.81146
890,0.00443,0.63935,1.79476
891,0.00444,0.63935,1.79476
892,0.00445,0.640937,1.77805
893,0.00446,0.637763,1.76135
894,0.00447,0.637763,1.74464
895,0.00448,0.637763,1.72794
896,0.00449,0.637763,1.67783
897,0.0045,0.636176,1.66113
898,0.00451,0.636176,1.64442
899,0.00452,0.636176,1.64442
900,0.00453,0.636176,1.62772
901,0.00454,0.634588,1.62772
902,0.00455,0.634588,1.59431
903,0.00456,0.636176,1.57761
904,0.00457,0.633001,1.5609
905,0.00458,0.633001,1.5609
906,0.00459,0.633001,1.5442
907,0.0046,0.634588,1.5442
908,0.00461,0.631414,1.51079
909,0.00462,0.631414,1.49409
910,0.00463,0.631414,1.47739
911,0.00464,0.631414,1.44398
912,0.00465,0.629827,1.44398
913,0.00466,0.629827,1.44398
914,0.00467,0.629827,1.41057
915,0.00468,0.629827,1.39387
916,0.00469,0.62824,1.39387
917,0.0047,0.62824,1.37716
918,0.00471,0.62824,1.36046
919,0.00472,0.626653,1.36046
920,0.00473,0.626653,1.32705
921,0.00474,0.626653,1.31035
922,0.00475,0.625066,1.29364
923,0.00476,0.625066,1.29364
924,0.00477,0.626653,1.27694
925,0.00478,0.621892,1.26024
926,0.00479,0.621892,1.26024
927,0.0048,0.621892,1.19342
928,0.00481,0.620305,1.19342
929,0.00482,0.620305,1.17672
930,0.00483,0.620305,1.17672
931,0.00484,0.618718,1.12661
932,0.00485,0.618718,1.14331
933,0.00486,0.620305,1.12661
934,0.00487,0.617131,1.1099
935,0.00488,0.617131,1.1099
936,0.00489,0.618718,1.0932
937,0.0049,0.615544,1.0765
938,0.00491,0.617131,1.05979
939,0.00492,0.613957,1.04309
940,0.00493,0.615544,1.02638
941,0.00494,0.61237,1.00968
942,0.00495,0.61237,1.00968
943,0.00496,0.61237,0.976274
944,0.00497,0.610783,0.942866
945,0.00498,0.61237,0.926163
946,0.00499,0.609196,0.926163
947,0.005,0.609196,0.926163
948,0.00501,0.609196,0.892755
949,0.00502,0.607609,0.876051
950,0.00503,0.607609,0.859348
951,0.00504,0.606022,0.859348
952,0.00505,0.606022,0.842644
953,0.00506,0.604435,0.82594
954,0.00507,0.604435,0.82594
955,0.00508,0.602848,0.792533
956,0.00509,0.602848,0.775829
957,0.0051,0.601261,0.775829
958,0.00511,0.601261,0.775829
959,0.00512,0.601261,0.742422
960,0.00513,0.601261,0.725718
961,0.00514,0.596499,0.69231
962,0.00515,0.596499,0.69231
963,0.00516,0.594912,0.675607
964,0.00517,0.594912,0.675607
965,0.00518,0.594912,0.642199
966,0.00519,0.591738,0.625496
967,0.0052,0.591738,0.608792
968,0.00521,0.590151,0.608792
969,0.00522,0.590151,0.608792
970,0.00523,0.588564,0.575384
971,0.00524,0.586977,0.558681
972,0.00525,0.586977,0.541977
973,0.00526,0.586977,0.525273
974,0.00527,0.583803,0.525273
975,0.00528,0.583803,0.508569
976,0.00529,0.583803,0.508569
977,0.0053,0.580629,0.475162
978,0.00531,0.579042,0.475162
979,0.00532,0.579042,0.441755
980,0.00533,0.579042,0.441755
981,0.00534,0.574281,0.408347
982,0.00535,0.572694,0.408347
983,0.00536,0.571107,0.408347
984,0.00537,0.571107,0.37494
985,0.00538,0.56952,0.358236
986,0.00539,0.567933,0.358236
987,0.0054,0.566346,0.341532
988,0.00541,0.564758,0.324829
989,0.00542,0.563171,0.308125
990,0.00543,0.559997,0.308125
991,0.00544,0.559997,0.291421
992,0.00545,0.556823,0.274717
993,0.00546,0.553649,0.274717
994,0.00547,0.550475,0.24131
995,0.00548,0.550475,0.224606
996,0.00549,0.547301,0.224606
997,0.0055,0.544127,0.191199
998,0.00551,0.54254,0.191199
999,0.00552,0.539366,0.157791
1000,0.00553,0.536192,0.141088
1001,0.00554,0.536192,0.141088
1002,0.00555,0.529843,0.141088
1003,0.00556,0.526669,0.10768
1004,0.00557,0.523495,0.0909765
1005,0.00558,0.521908,0.0909765
1006,0.00559,0.51556,0.0742728
1007,0.0056,0.512386,0.0742728
1008,0.00561,0.507625,0.0742728
1009,0.00562,0.502864,0.0408653
1010,0.00563,0.498103,0.0408653
1011,0.00564,0.493341,0.0241616
1012,0.00565,0.485406,0.0241616
1013,0.00566,0.479058,0.00745786
1014,0.00567,0.47271,0.00745786
1015,0.00568,0.463187,-0.00924586
1016,0.00569,0.456839,-0.00924586
1017,0.0057,0.44573,-0.00924586
1018,0.00571,0.434621,-0.0259496
1019,0.00572,0.425098,-0.0259496
1020,0.00573,0.412402,-0.0259496
1021,0.00574,0.399706,-0.0259496
1022,0.00575,0.383835,-0.0426533
1023,0.00576,0.369552,-0.0426533
1024,0.00577,0.356855,-0.0927645
1025,0.00578,0.342572,-0.0426533
1026,0.00579,0.323527,-0.0426533
1027,0.0058,0.310831,-0.0426533
1028,0.00581,0.291786,-0.0426533
1029,0.00582,0.277503,-0.0760607
1030,0.00583,0.260046,-0.0760607
1031,0.00584,0.244175,-0.0426533
1032,0.00585,0.229892,-0.0426533
1033,0.00586,0.212434,-0.0426533
1034,0.00587,0.196564,-0.0426533
1035,0.00588,0.179106,-0.0426533
1036,0.00589,0.161649,-0.0760607
1037,0.0059,0.147365,-0.0426533
1038,0.00591,0.129908,-0.0760607
1039,0.00592,0.115624,-0.0426533
1040,0.00593,0.0965798,-0.0426533
1041,0.00594,0.0791223,-0.0426533
1042,0.00595,0.0648389,-0.0760607
1043,0.00596,0.0473814,-0.0426533
1044,0.00597,0.0299239,-0.0426533
1045,0.00598,0.0124663,-0.0426533
1046,0.00599,-0.00340412,-0.0426533
1047,0.006,-0.0192746,-0.0760607
1048,0.00601,-0.0383191,-0.0426533
1049,0.00602,-0.0510155,-0.0426533
1050,0.00603,-0.068473,-0.0426533
1051,0.00604,-0.0859305,-0.0426533
1052,0.00605,-0.101801,-0.0426533
1053,0.00606,-0.117671,-0.0426533
1054,0.00607,-0.136716,-0.0426533
1055,0.00608,-0.150999,-0.0426533
1056,0.00609,-0.170044,-0.0426533
1057,0.0061,-0.18274,-0.0426533
1058,0.00611,-0.201785,-0.0426533
1059,0.00612,-0.219242,-0.0760607
1060,0.00613,-0.235113,-0.0760607
1061,0.00614,-0.250983,-0.0760607
1062,0.00615,-0.268441,-0.0760607
1063,0.00616,-0.284311,-0.0760607
1064,0.00617,-0.300182,-0.0760607
1065,0.00618,-0.317639,-0.0760607
1066,0.00619,-0.33351,-0.0760607
1067,0.0062,-0.350967,-0.0426533
1068,0.00621,-0.370012,-0.0426533
1069,0.00622,-0.382708,-0.0426533
1070,0.00623,-0.400166,-0.0426533
1071,0.00624,-0.417623,-0.0426533
1072,0.00625,-0.435081,-0.0426533
1073,0.00626,-0.449364,-0.0426533
1074,0.00627,-0.466822,-0.0426533
1075,0.00628,-0.484279,-0.0426533
1076,0.00629,-0.501737,-0.0426533
1077,0.0063,-0.51602,-0.0426533
1078,0.00631,-0.535065,-0.0426533
1079,0.00632,-0.550935,-0.0426533
1080,0.00633,-0.566806,-0.0426533
1081,0.00634,-0.584263,-0.0760607
1082,0.00635,-0.601721,-0.0760607
1083,0.00636,-0.614417,-0.0760607
1084,0.00637,-0.633462,-0.0760607
1085,0.00638,-0.649332,-0.0760607
1086,0.00639,-0.666789,-0.0426533
1087,0.0064,-0.681073,-0.0426533
1088,0.00641,-0.69853,-0.0426533
1089,0.00642,-0.715988,-0.0426533
1090,0.00643,-0.733445,-0.0426533
1091,0.00644,-0.747729,-0.0426533
1092,0.00645,-0.765186,-0.0426533
1093,0.00646,-0.782644,-0.0760607
1094,0.00647,-0.800101,-0.0760607
1095,0.00648,-0.815972,-0.0760607
1096,0.00649,-0.833429,-0.0426533
1097,0.0065,-0.8493,-0.0426533
1098,0.00651,-0.866757,-0.0426533
1099,0.00652,-0.882628,-0.0426533
1100,0.00653,-0.900085,-0.0426533
1101,0.00654,-0.915956,-0.0426533
1102,0.00655,-0.933413,-0.0426533
1103,0.00656,-0.949284,-0.0426533
1104,0.00657,-0.966741,-0.0426533
1105,0.00658,-0.982612,-0.0426533
1106,0.00659,-0.998482,-0.0426533
1107,0.0066,-1.01435,-0.0426533
1108,0.00661,-1.03181,-0.0426533
1109,0.00662,-1.04768,-0.0426533
1110,0.00663,-1.06514,-0.0426533
1111,0.00664,-1.08101,-0.0760607
1112,0.00665,-1.09847,-0.0760607
1113,0.00666,-1.11592,-0.0760607
1114,0.00667,-1.13179,-0.0760607
1115,0.00668,-1.14766,-0.0760607
1116,0.00669,-1.16671,-0.0760607
1117,0.0067,-1.17941,-0.0426533
1118,0.00671,-1.19845,-0.0426533
1119,0.00672,-1.21591,-0.0927645
1120,0.00673,-1.23337,-0.0426533
1121,0.00674,-1.24606,-0.0426533
1122,0.00675,-1.26511,-0.0426533
1123,0.00676,-1.28098,-0.0426533
1124,0.00677,-1.29843,-0.0426533
1125,0.00678,-1.31272,-0.0426533
1126,0.00679,-1.33017,-0.0426533
1127,0.0068,-1.34763,-0.0426533
1128,0.00681,-1.36509,-0.0760607
1129,0.00682,-1.37937,-0.0426533
1130,0.00683,-1.39683,-0.0426533
1131,0.00684,-1.4127,-0.0426533
1132,0.00685,-1.43175,-0.0426533
1133,0.00686,-1.44603,-0.0426533
1134,0.00687,-1.46349,-0.0426533
1135,0.00688,-1.47936,-0.0426533
1136,0.00689,-1.49681,-0.0426533
1137,0.0069,-1.51269,-0.0426533
1138,0.00691,-1.53173,-0.0426533
1139,0.00692,-1.54601,-0.0760607
1140,0.00693,-1.56506,-0.0760607
1141,0.00694,-1.58093,-0.0760607
1142,0.00695,-1.59839,-0.0760607
1143,0.00696,-1.61267,-0.0760607
1144,0.00697,-1.63013,-0.0760607
1145,0.00698,-1.646,-0.0426533
1146,0.00699,-1.66504,-0.0426533
1147,0.007,-1.68091,-0.0426533
1148,0.00701,-1.6952,-0.0426533
1149,0.00702,-1.71265,-0.0760607
1150,0.00703,-1.73011,-0.0426533
1151,0.00704,-1.74598,-0.0426533
1152,0.00705,-1.76185,-0.0426533
1153,0.00706,-1.77772,-0.0426533
1154,0.00707,-1.79518,-0.0426533
1155,0.00708,-1.81264,-0.0426533
1156,0.00709,-1.82692,-0.0426533
1157,0.0071,-1.84438,-0.0426533
1158,0.00711,-1.86184,-0.0426533
1159,0.00712,-1.87771,-0.0259496
1160,0.00713,-1.89516,-0.0760607
1161,0.00714,-1.91421,-0.0426533
1162,0.00715,-1.93167,-0.0760607
1163,0.00716,-1.94436,-0.0760607
1164,0.00717,-1.96341,-0.0760607
1165,0.00718,-1.97928,-0.0760607
1166,0.00719,-1.99673,-0.0760607
1167,0.0072,-2.0126,-0.0760607
1168,0.00721,-2.03006,-0.0760607
1169,0.00722,-2.04593,-0.0760607
1170,0.00723,-2.06339,-0.0760607
1171,0.00724,-2.07767,-0.0760607
1172,0.00725,-2.09513,-0.0760607
1173,0.00726,-2.11259,-0.0760607
1174,0.00727,-2.12846,-0.0760607
1175,0.00728,-2.14433,-0.0760607
1176,0.00729,-2.16179,-0.0760607
1177,0.0073,-2.17766,-0.0259496
1178,0.00731,-2.1967,-0.0927645
1179,0.00732,-2.2094,-0.0426533
1180,0.00733,-2.22844,-0.0426533
1181,0.00734,-2.24273,-0.0426533
1182,0.00735,-2.26018,-0.0426533
1183,0.00736,-2.27764,-0.0426533
1184,0.00737,-2.2951,-0.0426533
1185,0.00738,-2.30938,-0.0426533
1186,0.00739,-2.32684,-0.0760607
1187,0.0074,-2.3443,-0.0426533
1188,0.00741,-2.36175,-0.0426533
1189,0.00742,-2.37763,-0.0426533
1190,0.00743,-2.39508,-0.0426533
1191,0.00744,-2.41095,-0.0760607
1192,0.00745,-2.42841,-0.0760607
1193,0.00746,-2.44428,-0.0760607
1194,0.00747,-2.46015,-0.0760607
1195,0.00748,-2.47602,-0.0760607
1196,0.00749,-2.49348,-0.0760607
1197,0.0075,-2.50935,-0.0760607
1198,0.00751,-2.52522,-0.0426533
1199,0.00752,-2.54268,-0.0426533
1200,0.00753,-2.55855,-0.0426533
1201,0.00754,-2.57601,-0.0426533
1202,0.00755,-2.59029,-0.0426533
1203,0.00756,-2.60933,-0.0426533
1204,0.00757,-2.62679,-0.0426533
1205,0.00758,-2.64266,-0.0426533
1206,0.00759,-2.66012,-0.0426533
1207,0.0076,-2.6744,-0.0426533
1208,0.00761,-2.69345,-0.0760607
1209,0.00762,-2.70932,-0.0760607
1210,0.00763,-2.72519,-0.0426533
1211,0.00764,-2.74265,-0.0426533
1212,0.00765,-2.7601,-0.0426533
1213,0.00766,-2.77439,-0.0426533
1214,0.00767,-2.79184,-0.0426533
1215,0.00768,-2.8093,-0.0426533
1216,0.00769,-2.82835,-0.0426533
1217,0.0077,-2.84104,-0.0426533
1218,0.00771,-2.8585,-0.0426533
1219,0.00772,-2.87596,-0.0760607
1220,0.00773,-2.89183,-0.0760607
1221,0.00774,-2.9077,-0.0760607
1222,0.00775,-2.92516,-0.0426533
1223,0.00776,-2.94261,-0.0426533
1224,0.00777,-2.95848,-0.0426533
1225,0.00778,-2.97277,-0.0426533
1226,0.00779,-2.99181,-0.0426533
1227,0.0078,-3.00927,-0.0426533
1228,0.00781,-3.02355,-0.0426533
1229,0.00782,-3.04101,-0.0426533
1230,0.00783,-3.05847,-0.0426533
1231,0.00784,-3.07593,-0.0760607
1232,0.00785,-3.09021,-0.0760607
1233,0.00786,-3.10767,-0.0426533
1234,0.00787,-3.12512,-0.0426533
1235,0.00788,-3.13941,-0.0426533
1236,0.00789,-3.15687,-0.0426533
1237,0.0079,-3.17591,-0.0426533
1238,0.00791,-3.19019,-0.0426533
1239,0.00792,-3.20606,-0.0426533
1240,0.00793,-3.22352,-0.0426533
1241,0.00794,-3.23939,-0.0426533
1242,0.00795,-3.25685,-0.0426533
1243,0.00796,-3.27272,-0.0426533
1244,0.00797,-3.29018,-0.0426533
1245,0.00798,-3.30763,-0.0426533
1246,0.00799,-3.32509,-0.0426533
1247,0.008,-3.33779,-0.0426533
1248,0.00801,-3.35683,-0.0426533
1249,0.00802,-3.3727,-0.0760607
1250,0.00803,-3.39175,-0.0426533
1251,0.00804,-3.40603,-0.0426533
1252,0.00805,-3.42349,-0.0426533
1253,0.00806,-3.43936,-0.0760607
1254,0.00807,-3.45523,-0.0760607
1255,0.00808,-3.47269,-0.0426533
1256,0.00809,-3.48856,-0.0426533
1257,0.0081,-3.50602,-0.0426533
1258,0.00811,-3.52189,-0.0426533
1259,0.00812,-3.53776,-0.0426533
1260,0.00813,-3.55521,-0.0426533
1261,0.00814,-3.57267,-0.0426533
1262,0.00815,-3.58854,-0.0426533
1263,0.00816,-3.60441,-0.0426533
1264,0.00817,-3.62346,-0.0426533
1265,0.00818,-3.63615,-0.0760607
1266,0.00819,-3.65361,-0.0760607
1267,0.0082,-3.67107,-0.0760607
1268,0.00821,-3.69011,-0.0760607
1269,0.00822,-3.70598,-0.0426533
1270,0.00823,-3.72027,-0.0426533
1271,0.00824,-3.73614,-0.0426533
1272,0.00825,-3.75677,-0.0426533
1273,0.00826,-3.77423,-0.0426533
1274,0.00827,-3.7901,-0.0426533
1275,0.00828,-3.80597,-0.0426533
1276,0.00829,-3.82342,-0.0760607
1277,0.0083,-3.8393,-0.0760607
1278,0.00831,-3.85675,-0.0760607
1279,0.00832,-3.87262,-0.0760607
1280,0.00833,-3.89167,-0.0426533
1281,0.00834,-3.90436,-0.0426533
1282,0.00835,-3.92341,-0.0426533
1283,0.00836,-3.93769,-0.0426533
1284,0.00837,-3.95515,-0.0426533
1285,0.00838,-3.97102,-0.0426533
1286,0.00839,-3.98848,-0.0426533
1287,0.0084,-4.00593,-0.0426533
1288,0.00841,-4.02339,-0.0426533
1289,0.00842,-4.03609,-0.0426533
1290,0.00843,-4.05513,-0.0426533
1291,0.00844,-4.071,-0.0760607
1292,0.00845,-4.09005,-0.0760607
1293,0.00846,-4.10433,-0.0426533
1294,0.00847,-4.1202,-0.0426533
1295,0.00848,-4.13766,-0.0426533
1296,0.00849,-4.14083,-0.0426533
1297,0.0085,-4.1202,-0.0426533
1298,0.00851,-4.10592,-0.0426533
1299,0.00852,-4.09005,-0.0426533
1300,0.00853,-4.07259,-0.0426533
1301,0.00854,-4.05672,-0.0426533
1302,0.00855,-4.03926,-0.0426533
1303,0.00856,-4.02339,-0.0426533
1304,0.00857,-4.00593,-0.0426533
1305,0.00858,-3.99165,-0.0426533
1306,0.00859,-3.97261,-0.0426533
1307,0.0086,-3.95991,-0.0927645
1308,0.00861,-3.94087,-0.0259496
1309,0.00862,-3.92658,-0.0927645
1310,0.00863,-3.90913,-0.0426533
1311,0.00864,-3.89325,-0.0426533
1312,0.00865,-3.8758,-0.0426533
1313,0.00866,-3.85834,-0.0426533
1314,0.00867,-3.84406,-0.0426533
1315,0.00868,-3.8266,-0.0426533
1316,0.00869,-3.80914,-0.0426533
1317,0.0087,-3.79327,-0.0426533
1318,0.00871,-3.77581,-0.0426533
1319,0.00872,-3.76312,-0.0426533
1320,0.00873,-3.7409,-0.0760607
1321,0.00874,-3.72503,-0.0760607
1322,0.00875,-3.70757,-0.0760607
1323,0.00876,-3.69329,-0.0760607
1324,0.00877,-3.67583,-0.0426533
1325,0.00878,-3.65837,-0.0426533
1326,0.00879,-3.6425,-0.0426533
1327,0.0088,-3.62504,-0.0426533
1328,0.00881,-3.60759,-0.0426533
1329,0.00882,-3.59489,-0.0426533
1330,0.00883,-3.57585,-0.0426533
1331,0.00884,-3.56156,-0.0426533
1332,0.00885,-3.54252,-0.0426533
1333,0.00886,-3.52823,-0.0426533
1334,0.00887,-3.51078,-0.0426533
1335,0.00888,-3.49491,-0.0426533
1336,0.00889,-3.47586,-0.0426533
1337,0.0089,-3.46158,-0.0760607
1338,0.00891,-3.44412,-0.0426533
1339,0.00892,-3.42666,-0.0426533
1340,0.00893,-3.41079,-0.0426533
1341,0.00894,-3.39334,-0.0426533
1342,0.00895,-3.37905,-0.0426533
1343,0.00896,-3.36159,-0.0426533
1344,0.00897,-3.34255,-0.0426533
1345,0.00898,-3.32985,-0.0426533
1346,0.00899,-3.3124,-0.0426533
1347,0.009,-3.29494,-0.0426533
1348,0.00901,-3.27907,-0.0426533
1349,0.00902,-3.26161,-0.0760607
1350,0.00903,-3.24574,-0.0426533
1351,0.00904,-3.22828,-0.0426533
1352,0.00905,-3.21241,-0.0426533
1353,0.00906,-3.19813,-0.0426533
1354,0.00907,-3.17908,-0.0426533
1355,0.00908,-3.1648,-0.0426533
1356,0.00909,-3.14734,-0.0426533
1357,0.0091,-3.13147,-0.0426533
1358,0.00911,-3.11401,-0.0426533
1359,0.00912,-3.09814,-0.0426533
1360,0.00913,-3.0791,-0.0426533
1361,0.00914,-3.06482,-0.0426533
1362,0.00915,-3.04736,-0.0426533
1363,0.00916,-3.03149,-0.0426533
1364,0.00917,-3.01562,-0.0426533
1365,0.00918,-2.99816,-0.0426533
1366,0.00919,-2.97912,-0.0426533
1367,0.0092,-2.96642,-0.0426533
1368,0.00921,-2.94896,-0.0426533
1369,0.00922,-2.9315,-0.0426533
1370,0.00923,-2.91405,-0.0760607
1371,0.00924,-2.89976,-0.0426533
1372,0.00925,-2.88231,-0.0426533
1373,0.00926,-2.86644,-0.0426533
1374,0.00927,-2.84739,-0.0426533
1375,0.00928,-2.83311,-0.0426533
1376,0.00929,-2.81565,-0.0426533
1377,0.0093,-2.79978,-0.0760607
1378,0.00931,-2.78391,-0.0760607
1379,0.00932,-2.76645,-0.0426533
1380,0.00933,-2.74899,-0.0426533
1381,0.00934,-2.73312,-0.0426533
1382,0.00935,-2.71725,-0.0426533
1383,0.00936,-2.6998,-0.0426533
1384,0.00937,-2.68393,-0.0426533
1385,0.00938,-2.66647,-0.0426533
1386,0.00939,-2.6506,-0.0426533
1387,0.0094,-2.63314,-0.0426533
1388,0.00941,-2.61568,-0.0426533
1389,0.00942,-2.6014,-0.0426533
1390,0.00943,-2.58394,-0.0760607
1391,0.00944,-2.56648,-0.0760607
1392,0.00945,-2.55061,-0.0760607
1393,0.00946,-2.53474,-0.0760607
1394,0.00947,-2.51887,-0.0760607
1395,0.00948,-2.50142,-0.0760607
1396,0.00949,-2.48396,-0.0426533
1397,0.0095,-2.46967,-0.0426533
1398,0.00951,-2.45222,-0.0426533
1399,0.00952,-2.43635,-0.0426533
1400,0.00953,-2.41889,-0.0426533
1401,0.00954,-2.40302,-0.0426533
1402,0.00955,-2.38715,-0.0426533
1403,0.00956,-2.36969,-0.0426533
1404,0.00957,-2.35382,-0.0426533
1405,0.00958,-2.33795,-0.0760607
1406,0.00959,-2.32049,-0.0760607
1407,0.0096,-2.30303,-0.0760607
1408,0.00961,-2.28716,-0.0426533
1409,0.00962,-2.26971,-0.0426533
1410,0.00963,-2.25384,-0.0426533
1411,0.00964,-2.23638,-0.0426533
1412,0.00965,-2.22051,-0.0426533
1413,0.00966,-2.20305,-0.0760607
1414,0.00967,-2.18559,-0.0760607
1415,0.00968,-2.16972,-0.0426533
1416,0.00969,-2.15385,-0.0426533
1417,0.0097,-2.13957,-0.0426533
1418,0.00971,-2.12052,-0.0426533
1419,0.00972,-2.10307,-0.0760607
1420,0.00973,-2.0872,-0.0426533
1421,0.00974,-2.07133,-0.0426533
1422,0.00975,-2.05387,-0.0426533
1423,0.00976,-2.03958,-0.0426533
1424,0.00977,-2.02213,-0.0426533
1425,0.00978,-2.00467,-0.0426533
1426,0.00979,-1.9888,-0.0426533
1427,0.0098,-1.97293,-0.0426533
1428,0.00981,-1.95706,-0.0426533
1429,0.00982,-1.9396,-0.0426533
1430,0.00983,-1.92056,-0.0426533
1431,0.00984,-1.90786,-0.0426533
1432,0.00985,-1.88882,-0.0426533
1433,0.00986,-1.87136,-0.0426533
1434,0.00987,-1.8539,-0.0426533
1435,0.00988,-1.83803,-0.0426533
1436,0.00989,-1.82057,-0.0426533
1437,0.0099,-1.80629,-0.0426533
1438,0.00991,-1.78724,-0.0426533
1439,0.00992,-1.77296,-0.0426533
1440,0.00993,-1.7555,-0.0426533
1441,0.00994,-1.73805,-0.0426533
1442,0.00995,-1.72059,-0.0426533
1443,0.00996,-1.7063,-0.0760607
1444,0.00997,-1.68885,-0.0760607
1445,0.00998,-1.67298,-0.0760607
1446,0.00999,-1.65711,-0.0760607
1447,0.01,-1.64124,-0.0760607
1448,0.01001,-1.62219,-0.0760607
1449,0.01002,-1.6095,-0.0760607
1450,0.01003,-1.59204,-0.0760607
1451,0.01004,-1.57458,-0.0760607
1452,0.01005,-1.55712,-0.0760607
1453,0.01006,-1.53966,-0.0426533
1454,0.01007,-1.52379,-0.0426533
1455,0.01008,-1.50634,-0.0426533
1456,0.01009,-1.48888,-0.0426533
1457,0.0101,-1.47618,-0.0426533
1458,0.01011,-1.45714,-0.0426533
1459,0.01012,-1.44127,-0.0426533
1460,0.01013,-1.42381,-0.0426533
1461,0.01014,-1.40794,-0.0426533
1462,0.01015,-1.39207,-0.0760607
1463,0.01016,-1.37461,-0.0760607
1464,0.01017,-1.35715,-0.0760607
1465,0.01018,-1.34287,-0.0426533
1466,0.01019,-1.32541,-0.0426533
1467,0.0102,-1.30954,-0.0426533
1468,0.01021,-1.29209,-0.0760607
1469,0.01022,-1.27622,-0.0259496
1470,0.01023,-1.26034,-0.0927645
1471,0.01024,-1.24289,-0.0426533
1472,0.01025,-1.22384,-0.0426533
1473,0.01026,-1.21115,-0.0426533
1474,0.01027,-1.1921,-0.0760607
1475,0.01028,-1.17464,-0.0760607
1476,0.01029,-1.15877,-0.0760607
1477,0.0103,-1.14449,-0.0426533
1478,0.01031,-1.12545,-0.0426533
1479,0.01032,-1.10958,-0.0426533
1480,0.01033,-1.09212,-0.0426533
1481,0.01034,-1.07625,-0.0426533
1482,0.01035,-1.05879,-0.0426533
1483,0.01036,-1.04292,-0.0426533
1484,0.01037,-1.02705,-0.0426533
1485,0.01038,-1.00959,-0.0426533
1486,0.01039,-0.992134,-0.0426533
1487,0.0104,-0.979438,-0.0426533
1488,0.01041,-0.96198,-0.0426533
1489,0.01042,-0.94611,-0.0760607
1490,0.01043,-0.927065,-0.0760607
1491,0.01044,-0.912782,-0.0760607
1492,0.01045,-0.893737,-0.0760607
1493,0.01046,-0.879454,-0.0760607
1494,0.01047,-0.861996,-0.0760607
1495,0.01048,-0.846126,-0.0426533
1496,0.01049,-0.827081,-0.0426533
1497,0.0105,-0.812798,-0.0760607
1498,0.01051,-0.793753,-0.0426533
1499,0.01052,-0.777883,-0.0426533
1500,0.01053,-0.760425,-0.0426533
1501,0.01054,-0.742968,-0.0426533
1502,0.01055,-0.728684,-0.0426533
1503,0.01056,-0.711227,-0.0426533
1504,0.01057,-0.693769,-0.0426533
1505,0.01058,-0.677899,-0.0426533
1506,0.01059,-0.660441,-0.0426533
1507,0.0106,-0.644571,-0.0426533
1508,0.01061,-0.627113,-0.0426533
1509,0.01062,-0.611243,-0.0426533
1510,0.01063,-0.596959,-0.0426533
1511,0.01064,-0.579502,-0.0426533
1512,0.01065,-0.560457,-0.0426533
1513,0.01066,-0.546174,-0.0426533
1514,0.01067,-0.530303,-0.0426533
1515,0.01068,-0.514433,-0.0760607
1516,0.01069,-0.496976,-0.0760607
1517,0.0107,-0.482692,-0.0760607
1518,0.01071,-0.463648,-0.0760607
1519,0.01072,-0.44619,-0.0760607
1520,0.01073,-0.428733,-0.0760607
1521,0.01074,-0.411275,-0.0760607
1522,0.01075,-0.395405,-0.0426533
1523,0.01076,-0.377947,-0.0426533
1524,0.01077,-0.362077,-0.0426533
1525,0.01078,-0.344619,-0.0426533
1526,0.01079,-0.328749,-0.0426533
1527,0.0108,-0.312878,-0.0426533
1528,0.01081,-0.295421,-0.0426533
1529,0.01082,-0.277963,-0.0426533
1530,0.01083,-0.26368,-0.0426533
1531,0.01084,-0.244635,-0.0426533
1532,0.01085,-0.230352,-0.0760607
1533,0.01086,-0.214481,-0.0760607
1534,0.01087,-0.197024,-0.0760607
1535,0.01088,-0.181153,-0.0259496
1536,0.01089,-0.162109,-0.0760607
1537,0.0109,-0.149412,-0.0426533
1538,0.01091,-0.130368,-0.0426533
1539,0.01092,-0.114497,-0.0426533
1540,0.01093,-0.0970399,-0.0426533
1541,0.01094,-0.0811694,-0.0426533
1542,0.01095,-0.0652989,-0.0426533
1543,0.01096,-0.0462544,-0.0426533
1544,0.01097,-0.033558,-0.0426533
1545,0.01098,-0.0145134,-0.0426533
1546,0.01099,-0.000230028,-0.0426533
1547,0.011,0.0172275,-0.0760607
1548,0.01101,0.0330979,-0.0760607
1549,0.01102,0.0505555,-0.0259496
1550,0.01103,0.0664259,-0.0760607
1551,0.01104,0.0838834,-0.0426533
1552,0.01105,0.101341,-0.0426533
1553,0.01106,0.115624,-0.0426533
1554,0.01107,0.134669,-0.0760607
1555,0.01108,0.147365,-0.0760607
1556,0.01109,0.16641,-0.0426533
1557,0.0111,0.180693,-0.0426533
1558,0.01111,0.198151,-0.0426533
1559,0.01112,0.214021,-0.0426533
1560,0.01113,0.231479,-0.0426533
1561,0.01114,0.248936,-0.0426533
1562,0.01115,0.264807,-0.0426533
1563,0.01116,0.27909,-0.0426533
1564,0.01117,0.296548,-0.0426533
1565,0.01118,0.310831,-0.0426533
1566,0.01119,0.326702,-0.0426533
1567,0.0112,0.342572,-0.0426533
1568,0.01121,0.360029,-0.0426533
1569,0.01122,0.372726,-0.0426533
1570,0.01123,0.387009,-0.0259496
1571,0.01124,0.40288,-0.0259496
1572,0.01125,0.413989,-0.0259496
1573,0.01126,0.426685,-0.0259496
1574,0.01127,0.436208,-0.0259496
1575,0.01128,0.447317,-0.00924586
1576,0.01129,0.456839,-0.00924586
1577,0.0113,0.463187,-0.00924586
1578,0.01131,0.474297,0.00745786
1579,0.01132,0.480645,0.00745786
1580,0.01133,0.48858,0.0408653
1581,0.01134,0.493341,0.0408653
1582,0.01135,0.498103,0.0408653
1583,0.01136,0.502864,0.0742728
1584,0.01137,0.509212,0.0742728
1585,0.01138,0.513973,0.0742728
1586,0.01139,0.517147,0.0909765
1587,0.0114,0.520321,0.0909765
1588,0.01141,0.523495,0.10768
1589,0.01142,0.526669,0.10768
1590,0.01143,0.529843,0.124384
1591,0.01144,0.534605,0.157791
1592,0.01145,0.539366,0.157791
1593,0.01146,0.539366,0.157791
1594,0.01147,0.544127,0.174495
1595,0.01148,0.544127,0.191199
1596,0.01149,0.548888,0.224606
1597,0.0115,0.548888,0.258014
1598,0.01151,0.552062,0.258014
1599,0.01152,0.556823,0.258014
